"rt","recall","correct_answer","stimuli","spatial_demo_accuracy","set_size","token","browser","trial_type","trial_index","time_elapsed","unix_timeStamp","internal_node_id","symm_demo_accuracy","symm_accuracy","spatial_accuracy"
"2166","13_9_7","13_9_7","3:1_2:1_1:3","3","3","NNVpGeGfmvLdKEo","Firefox version 111.0","spatial-span-recall-demo","8","14313","1681330669600","0.0-2.0-1.0","","",""
"4691","11_15_3_9","11_15_3_9","2:3_3:3_0:3_2:1","4","4","","","spatial-span-recall-demo","18","23632","1681330678919","0.0-2.0-1.1","","",""
"2088","10_12_9_8","10_12_9_8","2:2_3:0_2:1_2:0","4","4","","","spatial-span-recall-demo","28","30359","1681330685646","0.0-2.0-1.2","","",""
"708","","","","","","","","symmetry-judgement-task-demo","31","32354","1681330687641","0.0-4.0-0.0","1","",""
"1044","","","","","","","","symmetry-judgement-task-demo","33","34463","1681330689750","0.0-4.0-0.1","1","",""
"761","","","","","","","","symmetry-judgement-task-demo","35","36289","1681330691576","0.0-4.0-0.2","1","",""
"606","","","","","","","","symmetry-judgement-task-demo","37","37958","1681330693245","0.0-4.0-0.3","1","",""
"695","","","","","","","","symmetry-judgement-task-demo","39","39711","1681330694998","0.0-4.0-0.4","1","",""
"null","","","","","","","","symmetry-judgement-task-demo","43","55124","1681330710411","0.0-6.0-0.0-1.0","","",""
"982","","","","","","","","symmetry-judgement-task-demo","46","57176","1681330712463","0.0-6.0-0.0-1.1","1","",""
"2000","5_1","4_1","1:0_0:1","1","2","","","spatial-span-recall-demo","48","59180","1681330714467","0.0-6.0-1.0","","",""
"992","","","","","","","","symmetry-judgement-task-demo","51","61704","1681330716991","0.0-6.0-0.1-1.2","1","",""
"575","","","","","","","","symmetry-judgement-task-demo","54","63344","1681330718631","0.0-6.0-0.1-1.3","1","",""
"753","","","","","","","","symmetry-judgement-task-demo","57","65158","1681330720445","0.0-6.0-0.1-1.4","1","",""
"1983","3_1_0","3_1_0","0:3_0:1_0:0","3","3","","","spatial-span-recall-demo","59","67144","1681330722431","0.0-6.0-1.1","","",""
"null","","","","","","","","symmetry-judgement-task-demo","62","74651","1681330729938","0.0-6.0-0.2-1.5","","",""
"1018","","","","","","","","symmetry-judgement-task-demo","65","76737","1681330732024","0.0-6.0-0.2-1.6","1","",""
"1177","","","","","","","","symmetry-judgement-task-demo","68","78982","1681330734269","0.0-6.0-0.2-1.7","1","",""
"916","","","","","","","","symmetry-judgement-task-demo","71","80967","1681330736254","0.0-6.0-0.2-1.8","1","",""
"2523","3_5_12_11","8_12_5_11","2:0_3:0_1:1_2:3","1","4","","","spatial-span-recall-demo","73","83495","1681330738782","0.0-6.0-1.2","","",""
"750","","","","","","","","symmetry-judgement-task-demo","76","85871","1681330741158","0.0-6.0-0.3-1.9","1","",""
"1048","","","","","","","","symmetry-judgement-task-demo","79","87983","1681330743270","0.0-6.0-0.3-1.10","1","",""
"627","","","","","","","","symmetry-judgement-task-demo","82","89672","1681330744959","0.0-6.0-0.3-1.11","1","",""
"938","","","","","","","","symmetry-judgement-task-demo","85","91672","1681330746959","0.0-6.0-0.3-1.12","1","",""
"836","","","","","","","","symmetry-judgement-task-demo","88","93575","1681330748862","0.0-6.0-0.3-1.13","1","",""
"2204","10_9_3_13_12","10_9_3_6_12","2:2_2:1_0:3_1:2_3:0","4","5","","","spatial-span-recall-demo","90","95783","1681330751070","0.0-6.0-1.3","","",""
"680","","","","","","","","symmetry-judgement-task","94","102473","1681330757760","0.0-8.0-0.0-1.0","","1",""
"805","","","","","","","","symmetry-judgement-task","97","104342","1681330759629","0.0-8.0-0.0-1.1","","1",""
"700","","","","","","","","symmetry-judgement-task","100","106111","1681330761398","0.0-8.0-0.0-1.2","","1",""
"1586","6_2_3","6_2_3","1:2_0:2_0:3","","3","","","spatial-span-recall","102","107702","1681330762989","0.0-8.0-1.0","","","3"
"701","","","","","","","","symmetry-judgement-task","105","109887","1681330765174","0.0-8.0-0.1-1.3","","1",""
"864","","","","","","","","symmetry-judgement-task","108","111815","1681330767102","0.0-8.0-0.1-1.4","","1",""
"3048","1_10","1_10","0:1_2:2","","2","","","spatial-span-recall","110","114867","1681330770154","0.0-8.0-1.1","","","2"
"751","","","","","","","","symmetry-judgement-task","113","117191","1681330772478","0.0-8.0-0.2-1.5","","1",""
"1558","","","","","","","","symmetry-judgement-task","116","119814","1681330775101","0.0-8.0-0.2-1.6","","1",""
"1684","4_8","4_8","1:0_2:0","","2","","","spatial-span-recall","118","121502","1681330776789","0.0-8.0-1.2","","","2"
"747","","","","","","","","symmetry-judgement-task","121","123951","1681330779238","0.0-8.0-0.3-1.7","","1",""
"1007","","","","","","","","symmetry-judgement-task","124","126022","1681330781309","0.0-8.0-0.3-1.8","","1",""
"831","","","","","","","","symmetry-judgement-task","127","127919","1681330783206","0.0-8.0-0.3-1.9","","1",""
"3290","11_15_0","11_15_0","2:3_3:3_0:0","","3","","","spatial-span-recall","129","131214","1681330786501","0.0-8.0-1.3","","","3"
"847","","","","","","","","symmetry-judgement-task","132","133527","1681330788814","0.0-8.0-0.4-1.10","","1",""
"808","","","","","","","","symmetry-judgement-task","135","135398","1681330790685","0.0-8.0-0.4-1.11","","1",""
"778","","","","","","","","symmetry-judgement-task","138","137239","1681330792526","0.0-8.0-0.4-1.12","","1",""
"1914","10_7_5","10_7_5","2:2_1:3_1:1","","3","","","spatial-span-recall","140","139158","1681330794445","0.0-8.0-1.4","","","3"
"754","","","","","","","","symmetry-judgement-task","143","141702","1681330796989","0.0-8.0-0.5-1.13","","1",""
"714","","","","","","","","symmetry-judgement-task","146","143479","1681330798766","0.0-8.0-0.5-1.14","","1",""
"749","","","","","","","","symmetry-judgement-task","149","145295","1681330800582","0.0-8.0-0.5-1.15","","1",""
"973","","","","","","","","symmetry-judgement-task","152","147335","1681330802622","0.0-8.0-0.5-1.16","","1",""
"3331","4_10_15_7","4_10_15_7","1:0_2:2_3:3_1:3","","4","","","spatial-span-recall","154","150671","1681330805958","0.0-8.0-1.5","","","4"
"1051","","","","","","","","symmetry-judgement-task","157","153237","1681330808524","0.0-8.0-0.6-1.17","","1",""
"507","","","","","","","","symmetry-judgement-task","160","154806","1681330810093","0.0-8.0-0.6-1.18","","1",""
"546","","","","","","","","symmetry-judgement-task","163","156415","1681330811702","0.0-8.0-0.6-1.19","","1",""
"928","","","","","","","","symmetry-judgement-task","166","158407","1681330813694","0.0-8.0-0.6-1.20","","1",""
"997","","","","","","","","symmetry-judgement-task","169","160462","1681330815749","0.0-8.0-0.6-1.21","","1",""
"2845","9_4_10_15_2","9_4_10_15_2","2:1_1:0_2:2_3:3_0:2","","5","","","spatial-span-recall","171","163311","1681330818598","0.0-8.0-1.6","","","5"
"843","","","","","","","","symmetry-judgement-task","174","165774","1681330821061","0.0-8.0-0.7-1.22","","1",""
"800","","","","","","","","symmetry-judgement-task","177","167639","1681330822926","0.0-8.0-0.7-1.23","","1",""
"968","","","","","","","","symmetry-judgement-task","180","169670","1681330824957","0.0-8.0-0.7-1.24","","1",""
"721","","","","","","","","symmetry-judgement-task","183","171455","1681330826742","0.0-8.0-0.7-1.25","","1",""
"3235","6_9_15_2","6_9_15_2","1:2_2:1_3:3_0:2","","4","","","spatial-span-recall","185","174694","1681330829981","0.0-8.0-1.7","","","4"
"911","","","","","","","","symmetry-judgement-task","188","177086","1681330832373","0.0-8.0-0.8-1.26","","1",""
"701","","","","","","","","symmetry-judgement-task","191","178855","1681330834142","0.0-8.0-0.8-1.27","","1",""
"1875","12_1","12_1","3:0_0:1","","2","","","spatial-span-recall","193","180733","1681330836020","0.0-8.0-1.8","","","2"
"913","","","","","","","","symmetry-judgement-task","196","183487","1681330838774","0.0-8.0-0.9-1.28","","1",""
"854","","","","","","","","symmetry-judgement-task","199","185406","1681330840693","0.0-8.0-0.9-1.29","","1",""
"750","","","","","","","","symmetry-judgement-task","202","187223","1681330842510","0.0-8.0-0.9-1.30","","1",""
"1146","","","","","","","","symmetry-judgement-task","205","189438","1681330844725","0.0-8.0-0.9-1.31","","1",""
"853","","","","","","","","symmetry-judgement-task","208","191359","1681330846646","0.0-8.0-0.9-1.32","","1",""
"3067","9_1_10_2_3","9_1_2_14_3","2:1_0:1_0:2_3:2_0:3","","5","","","spatial-span-recall","210","194429","1681330849716","0.0-8.0-1.9","","","3"
"873","","","","","","","","symmetry-judgement-task","213","197030","1681330852317","0.0-8.0-0.10-1.33","","1",""
"825","","","","","","","","symmetry-judgement-task","216","198918","1681330854205","0.0-8.0-0.10-1.34","","1",""
"561","","","","","","","","symmetry-judgement-task","219","200543","1681330855830","0.0-8.0-0.10-1.35","","0",""
"724","","","","","","","","symmetry-judgement-task","222","202334","1681330857621","0.0-8.0-0.10-1.36","","1",""
"2680","3_4_15_13","3_8_15_13","0:3_2:0_3:3_3:1","","4","","","spatial-span-recall","224","205019","1681330860306","0.0-8.0-1.10","","","3"
"702","","","","","","","","symmetry-judgement-task","227","207742","1681330863029","0.0-8.0-0.11-1.37","","1",""
"869","","","","","","","","symmetry-judgement-task","230","209679","1681330864966","0.0-8.0-0.11-1.38","","1",""
"829","","","","","","","","symmetry-judgement-task","233","211574","1681330866861","0.0-8.0-0.11-1.39","","1",""
"766","","","","","","","","symmetry-judgement-task","236","213406","1681330868693","0.0-8.0-0.11-1.40","","1",""
"805","","","","","","","","symmetry-judgement-task","239","215278","1681330870565","0.0-8.0-0.11-1.41","","1",""
"21779","7_1_2_6_10","7_1_3_4_6","1:3_0:1_0:3_1:0_1:2","","5","","","spatial-span-recall","241","237061","1681330892348","0.0-8.0-1.11","","","2"
