"rt","recall","correct_answer","stimuli","spatial_demo_accuracy","set_size","token","browser","trial_type","trial_index","time_elapsed","unix_timeStamp","internal_node_id","symm_demo_accuracy","symm_accuracy","spatial_accuracy"
"4815","2_5_15","2_5_11","0:2_1:1_2:3","2","3","upsRfhIaMrMSCRu","Chrome version 110.0.0.0","spatial-span-recall-demo","8","74023","1680807383916","0.0-2.0-1.0","","",""
"8451","3_8_7_14","3_8_7_14","0:3_2:0_1:3_3:2","4","4","","","spatial-span-recall-demo","18","88504","1680807398397","0.0-2.0-1.1","","",""
"4118","1_14_6_13","1_14_6_13","0:1_3:2_1:2_3:1","4","4","","","spatial-span-recall-demo","28","99211","1680807409104","0.0-2.0-1.2","","",""
"3556","","","","","","","","symmetry-judgement-task-demo","31","125522","1680807435415","0.0-4.0-0.0","1","",""
"1379","","","","","","","","symmetry-judgement-task-demo","33","128112","1680807438005","0.0-4.0-0.1","1","",""
"1404","","","","","","","","symmetry-judgement-task-demo","35","130742","1680807440635","0.0-4.0-0.2","1","",""
"876","","","","","","","","symmetry-judgement-task-demo","37","132912","1680807442805","0.0-4.0-0.3","1","",""
"2008","","","","","","","","symmetry-judgement-task-demo","39","136165","1680807446058","0.0-4.0-0.4","1","",""
"2782","","","","","","","","symmetry-judgement-task-demo","43","151478","1680807461371","0.0-6.0-0.0-1.0","1","",""
"2201","","","","","","","","symmetry-judgement-task-demo","46","154888","1680807464781","0.0-6.0-0.0-1.1","1","",""
"4002","8_4","12_4","3:0_1:0","1","2","","","spatial-span-recall-demo","48","158893","1680807468786","0.0-6.0-1.0","","",""
"5793","","","","","","","","symmetry-judgement-task-demo","51","173319","1680807483212","0.0-6.0-0.1-1.2","1","",""
"2258","","","","","","","","symmetry-judgement-task-demo","54","176795","1680807486688","0.0-6.0-0.1-1.3","1","",""
"1710","","","","","","","","symmetry-judgement-task-demo","57","179718","1680807489611","0.0-6.0-0.1-1.4","1","",""
"4695","14_0_10","14_0_10","3:2_0:0_2:2","3","3","","","spatial-span-recall-demo","59","184418","1680807494311","0.0-6.0-1.1","","",""
"1743","","","","","","","","symmetry-judgement-task-demo","62","194265","1680807504158","0.0-6.0-0.2-1.5","1","",""
"1847","","","","","","","","symmetry-judgement-task-demo","65","197330","1680807507223","0.0-6.0-0.2-1.6","1","",""
"1410","","","","","","","","symmetry-judgement-task-demo","68","199976","1680807509869","0.0-6.0-0.2-1.7","1","",""
"2221","","","","","","","","symmetry-judgement-task-demo","71","203395","1680807513288","0.0-6.0-0.2-1.8","1","",""
"5400","7_6_8_12","7_5_8_12","1:3_1:1_2:0_3:0","3","4","","","spatial-span-recall-demo","73","208799","1680807518692","0.0-6.0-1.2","","",""
"1371","","","","","","","","symmetry-judgement-task-demo","76","214064","1680807523957","0.0-6.0-0.3-1.9","1","",""
"1809","","","","","","","","symmetry-judgement-task-demo","79","217069","1680807526962","0.0-6.0-0.3-1.10","1","",""
"1181","","","","","","","","symmetry-judgement-task-demo","82","219478","1680807529371","0.0-6.0-0.3-1.11","1","",""
"2421","","","","","","","","symmetry-judgement-task-demo","85","223113","1680807533006","0.0-6.0-0.3-1.12","1","",""
"1819","","","","","","","","symmetry-judgement-task-demo","88","226144","1680807536037","0.0-6.0-0.3-1.13","1","",""
"6955","12_1_9_2_15","12_1_11_9_2","3:0_0:1_2:3_2:1_0:2","2","5","","","spatial-span-recall-demo","90","233111","1680807543004","0.0-6.0-1.3","","",""
"3525","","","","","","","","symmetry-judgement-task","94","306847","1680807616740","0.0-8.0-0.0-1.0","","1",""
"1902","","","","","","","","symmetry-judgement-task","97","309950","1680807619843","0.0-8.0-0.0-1.1","","1",""
"1887","","","","","","","","symmetry-judgement-task","100","313038","1680807622931","0.0-8.0-0.0-1.2","","1",""
"3145","6_11_10","6_11_10","1:2_2:3_2:2","","3","","","spatial-span-recall","102","316199","1680807626092","0.0-8.0-1.0","","","3"
"1500","","","","","","","","symmetry-judgement-task","105","321420","1680807631313","0.0-8.0-0.1-1.3","","1",""
"1678","","","","","","","","symmetry-judgement-task","108","324294","1680807634187","0.0-8.0-0.1-1.4","","1",""
"3146","11_14","11_14","2:3_3:2","","2","","","spatial-span-recall","110","327444","1680807637337","0.0-8.0-1.1","","","2"
"1911","","","","","","","","symmetry-judgement-task","113","333929","1680807643822","0.0-8.0-0.2-1.5","","1",""
"1831","","","","","","","","symmetry-judgement-task","116","336993","1680807646886","0.0-8.0-0.2-1.6","","1",""
"4032","3_0","3_0","0:3_0:0","","2","","","spatial-span-recall","118","341039","1680807650932","0.0-8.0-1.2","","","2"
"2413","","","","","","","","symmetry-judgement-task","121","346639","1680807656532","0.0-8.0-0.3-1.7","","1",""
"1441","","","","","","","","symmetry-judgement-task","124","349382","1680807659275","0.0-8.0-0.3-1.8","","1",""
"1167","","","","","","","","symmetry-judgement-task","127","351776","1680807661669","0.0-8.0-0.3-1.9","","1",""
"3855","6_10_8","6_14_8","1:2_3:2_2:0","","3","","","spatial-span-recall","129","355640","1680807665533","0.0-8.0-1.3","","","2"
"2433","","","","","","","","symmetry-judgement-task","132","361278","1680807671171","0.0-8.0-0.4-1.10","","1",""
"1528","","","","","","","","symmetry-judgement-task","135","363997","1680807673890","0.0-8.0-0.4-1.11","","1",""
"1561","","","","","","","","symmetry-judgement-task","138","366769","1680807676662","0.0-8.0-0.4-1.12","","1",""
"5026","15_3_0","15_3_0","3:3_0:3_0:0","","3","","","spatial-span-recall","140","371808","1680807681701","0.0-8.0-1.4","","","3"
"1555","","","","","","","","symmetry-judgement-task","143","377446","1680807687339","0.0-8.0-0.5-1.13","","1",""
"1642","","","","","","","","symmetry-judgement-task","146","380298","1680807690191","0.0-8.0-0.5-1.14","","1",""
"1815","","","","","","","","symmetry-judgement-task","149","383311","1680807693204","0.0-8.0-0.5-1.15","","1",""
"1254","","","","","","","","symmetry-judgement-task","152","385775","1680807695668","0.0-8.0-0.5-1.16","","1",""
"5175","10_14_6_12","10_14_6_12","2:2_3:2_1:2_3:0","","4","","","spatial-span-recall","154","390953","1680807700846","0.0-8.0-1.5","","","4"
"1475","","","","","","","","symmetry-judgement-task","157","395767","1680807705660","0.0-8.0-0.6-1.17","","1",""
"1281","","","","","","","","symmetry-judgement-task","160","398246","1680807708139","0.0-8.0-0.6-1.18","","1",""
"1918","","","","","","","","symmetry-judgement-task","163","401375","1680807711268","0.0-8.0-0.6-1.19","","1",""
"2923","","","","","","","","symmetry-judgement-task","166","405517","1680807715410","0.0-8.0-0.6-1.20","","1",""
"1514","","","","","","","","symmetry-judgement-task","169","408267","1680807718160","0.0-8.0-0.6-1.21","","1",""
"7287","13_9_10_6_0","13_9_10_6_0","3:1_2:1_2:2_1:2_0:0","","5","","","spatial-span-recall","171","415559","1680807725452","0.0-8.0-1.6","","","5"
"1566","","","","","","","","symmetry-judgement-task","174","420073","1680807729966","0.0-8.0-0.7-1.22","","1",""
"2524","","","","","","","","symmetry-judgement-task","177","423814","1680807733707","0.0-8.0-0.7-1.23","","1",""
"3270","","","","","","","","symmetry-judgement-task","180","428370","1680807738263","0.0-8.0-0.7-1.24","","1",""
"1883","","","","","","","","symmetry-judgement-task","183","431455","1680807741348","0.0-8.0-0.7-1.25","","1",""
"3949","0_4_14_3","0_4_14_3","0:0_1:0_3:2_0:3","","4","","","spatial-span-recall","185","435416","1680807745309","0.0-8.0-1.7","","","4"
"1804","","","","","","","","symmetry-judgement-task","188","440567","1680807750460","0.0-8.0-0.8-1.26","","1",""
"1700","","","","","","","","symmetry-judgement-task","191","443547","1680807753440","0.0-8.0-0.8-1.27","","1",""
"5231","2_10","2_10","0:2_2:2","","2","","","spatial-span-recall","193","448782","1680807758675","0.0-8.0-1.8","","","2"
"2218","","","","","","","","symmetry-judgement-task","196","453392","1680807763285","0.0-8.0-0.9-1.28","","1",""
"1792","","","","","","","","symmetry-judgement-task","199","456383","1680807766276","0.0-8.0-0.9-1.29","","1",""
"1262","","","","","","","","symmetry-judgement-task","202","458854","1680807768747","0.0-8.0-0.9-1.30","","1",""
"1738","","","","","","","","symmetry-judgement-task","205","461787","1680807771680","0.0-8.0-0.9-1.31","","1",""
"1783","","","","","","","","symmetry-judgement-task","208","464777","1680807774670","0.0-8.0-0.9-1.32","","1",""
"6189","2_0_4_5_7","2_0_4_7_11","0:2_0:0_1:0_1:3_2:3","","5","","","spatial-span-recall","210","470976","1680807780869","0.0-8.0-1.9","","","3"
"2173","","","","","","","","symmetry-judgement-task","213","476143","1680807786036","0.0-8.0-0.10-1.33","","1",""
"2008","","","","","","","","symmetry-judgement-task","216","479378","1680807789271","0.0-8.0-0.10-1.34","","1",""
"1257","","","","","","","","symmetry-judgement-task","219","481905","1680807791798","0.0-8.0-0.10-1.35","","1",""
"1358","","","","","","","","symmetry-judgement-task","222","484498","1680807794391","0.0-8.0-0.10-1.36","","1",""
"5206","5_0_15_11","5_0_15_11","1:1_0:0_3:3_2:3","","4","","","spatial-span-recall","224","489708","1680807799601","0.0-8.0-1.10","","","4"
"2396","","","","","","","","symmetry-judgement-task","227","494923","1680807804816","0.0-8.0-0.11-1.37","","1",""
"2680","","","","","","","","symmetry-judgement-task","230","498820","1680807808713","0.0-8.0-0.11-1.38","","1",""
"2774","","","","","","","","symmetry-judgement-task","233","502829","1680807812722","0.0-8.0-0.11-1.39","","1",""
"3659","","","","","","","","symmetry-judgement-task","236","507708","1680807817601","0.0-8.0-0.11-1.40","","1",""
"1623","","","","","","","","symmetry-judgement-task","239","510537","1680807820430","0.0-8.0-0.11-1.41","","1",""
"8022","14_9_4_13_0","14_9_4_13_0","3:2_2:1_1:0_3:1_0:0","","5","","","spatial-span-recall","241","518565","1680807828458","0.0-8.0-1.11","","","5"
